# All data in this file is centered around the brightness peak.

# FILENAME = J0441-02_Rsub_ss.fits / Image file name
# PIXSIZE =      0.432014 / Pixel size [arcsec]
# FLUX_UNITS = erg/cm^2/sec / Flux units
# FLUX_SCALE =    6.6547478e-16 / Flux scale [above units / (DN/sec)]
# FLUXCAL =    1 / Flux calibration complete?
# PROFTYPE = brightness / Profile type (isophote/brightness/other)
# NUMGALS =        1 / Number of sources in image
#
# GALINDEX =        1 / Source index (1 - N)
# XCENTER =       1081.85 / X(center) [pixels]
# YCENTER =       928.402 / Y(center) [pixels]
# AXERAT =       1.37681 / Axial ratio (a/b)
# PA_IMAGE =       38.5902 / Position angle, counterclockwise from Up [deg]
# PA =        38.157318 / Position angle, from N towards E [deg]
# SKYLEV =  -0.000143899 / Sky level [DN/sec]
# ERR_SKY_PIXEL =    0.00931987 / Sky RMS (pixel-to-pixel) [DN/sec]
# ERR_SKY_BOX =   0.000308756 / Sky RMS (box-to-box) [DN/sec]
# FLUXRAD_S =       567.853 / Sky aperture radius [pixels]
# FLUXRAD_F =       567.853 / Flux aperture radius [pixels]
# FLUXRAD_C =      -999.000 / Radius where SNR=3 [pixels]
# FLUX_S =        5053.4675 / Flux within sky aperture [DN/sec]
# FLUX_F =        5053.4675 / Flux within flux aperture [DN/sec]
# ERR_FLUX_S_SKY =       227.176 / Uncertainty in FLUX_S due to sky [DN/sec]
# ERR_FLUX_F_SKY =       227.176 / Uncertainty in FLUX_F due to sky [DN/sec]
# ERR_FLUX_S_CONT =        667.56167 / Uncertainty in FLUX_S due to continuum [DN/sec]
# ERR_FLUX_F_CONT =        667.56167 / Uncertainty in FLUX_F due to continuum [DN/sec]
# RE_F =        159.92300 / Flux aperture half-light radius [pixels]
# ERR_RE_F_SKY =        4.7468100 / Uncertainty in RE_F due to sky [pixels]
# ERR_RE_F_CONT =        3.6412066 / Uncertainty in RE_F due to continuum [pixels]
# SE_F =      0.031447619 / Face-on surface brightness within RE_F [DN/sec/pixel]
#  a[pix]  F(interior)     dF       N(good) N(bad) SurfBright  Sigma(SB)    dF(raw)  Sigma(F,sky)  Sigma(F,cntrat)
# all Flux and Surface Brightness values are in [DN/sec]
   0.0000      0.00000      0.00000      0      0      0.00000      0.00000      0.00000      0.00000      0.00000
   3.3696      145.827      145.827     26      0      5.62872      2.74080      146.347   0.00799913      5.60693
   6.7392      236.994      91.1669     78      0      1.17297      1.01387      91.4919    0.0319965      13.9144
  10.1088      274.673      37.6786    130      0     0.290869     0.171306      37.8130    0.0719922      21.3968
  13.4783      299.532      24.8593    183      0     0.137076    0.0605756      25.0850     0.127986      28.8912
  16.8479      319.275      19.7436    234      0    0.0846752    0.0295639      19.8140     0.199978      36.5394
  20.2175      338.223      18.9474    278      0    0.0664858    0.0250221      18.4831     0.287969      44.1956
  23.5871      356.708      18.4850    336      0    0.0548842    0.0258981      18.4411     0.391958      51.6248
  26.9567      374.794      18.0858    391      0    0.0465392    0.0266445      18.1968     0.511945      58.7907
  30.3263      391.719      16.9258    444      0    0.0384303    0.0163159      17.0630     0.647930      65.8348
  33.6959      410.578      18.8582    487      0    0.0383105    0.0232848      18.6572     0.799913      72.8998
  37.0654      435.021      24.4433    548      0    0.0449275    0.0384710      24.6203     0.967895      80.0827
  40.4350      461.930      26.9089    593      0    0.0451586    0.0392722      26.7790      1.15188      87.3295
  43.8046      491.388      29.4586    646      0    0.0454824    0.0292840      29.3817      1.35185      94.7717
  47.1742      524.444      33.0552    697      0    0.0472551    0.0322810      32.9368      1.56783      102.419
  50.5438      565.937      41.4936    756      0    0.0552275    0.0498173      41.7520      1.79980      110.278
  53.9134      642.738      76.8010    813      0    0.0956262     0.262347      77.7441      2.04778      118.890
  57.2830      709.197      66.4587    850      0    0.0777338     0.126154      66.0737      2.31175      127.345
  60.6525      773.271      64.0739    905      0    0.0706619    0.0609636      63.9491      2.59172      136.011
  64.0221      840.403      67.1321    958      0    0.0700326    0.0581162      67.0912      2.88769      145.006
  67.3917      916.564      76.1608   1011      0    0.0753770    0.0823970      76.2062      3.19965      154.084
  70.7613      997.425      80.8617   1063      0    0.0761257    0.0903787      80.9216      3.52762      163.336
  74.1309      1073.67      76.2493   1114      0    0.0684447     0.121462      76.2474      3.87158      172.308
  77.5005      1137.64      63.9695   1173      0    0.0548697    0.0626081      64.3621      4.23154      180.948
  80.8701      1198.85      61.2066   1204      0    0.0502657    0.0496208      60.5200      4.60750      189.336
  84.2397      1264.10      65.2523   1278      0    0.0514011    0.0722171      65.6906      4.99946      197.587
  87.6092      1324.20      60.0992   1310      0    0.0454852    0.0612413      59.5857      5.40741      205.710
  90.9788      1374.07      49.8702   1368      0    0.0363194    0.0401702      49.6849      5.83137      213.708
  94.3484      1419.66      45.5843   1444      0    0.0319908    0.0333283      46.1947      6.27132      221.694
  97.7180      1466.23      46.5764   1473      0    0.0315401    0.0340400      46.4585      6.72727      229.824
 101.0876      1513.36      47.1219   1529      0    0.0308279    0.0351244      47.1359      7.19922      238.161
 104.4572      1560.37      47.0151   1570      0    0.0297495    0.0376787      46.7067      7.68717      246.599
 107.8268      1607.88      47.5121   1632      0    0.0291095    0.0335339      47.5067      8.19111      255.212
 111.1963      1661.35      53.4643   1686      0    0.0317485    0.0364092      53.5279      8.71106      264.006
 114.5659      1717.40      56.0533   1735      0    0.0322923    0.0345070      56.0271      9.24700      273.002
 117.9355      1772.19      54.7884   1788      0    0.0306486    0.0317163      54.7997      9.79894      282.023
 121.3051      1828.19      55.9973   1849      0    0.0304426    0.0380242      56.2884      10.3669      291.218
 124.6747      1884.69      56.4997   1891      0    0.0298742    0.0365393      56.4920      10.9508      300.623
 128.0443      1940.38      55.6970   1933      4    0.0286644    0.0369749      55.4082      11.5507      310.252
 131.4139      1998.86      58.4730   1989      0    0.0293115    0.0471091      58.3005      12.1667      319.960
 134.7834      2048.84      49.9862   2057      0    0.0244227    0.0292735      50.2375      12.7986      329.732
 138.1530      2099.93      51.0854   2102      0    0.0243435    0.0280177      51.1701      13.4465      339.519
 141.5226      2160.93      61.0035   2153      0    0.0283693    0.0436915      61.0792      14.1105      349.406
 144.8922      2227.53      66.5983   2190      0    0.0302424    0.0519795      66.2309      14.7904      359.299
 148.2618      2293.70      66.1717   2261      0    0.0293579    0.0487179      66.3781      15.4863      369.187
 151.6314      2352.41      58.7054   2308      0    0.0254601    0.0328462      58.7620      16.1982      379.012
 155.0010      2416.29      63.8867   2355      0    0.0270982    0.0351765      63.8163      16.9262      388.917
 158.3706      2486.33      70.0347   2414      0    0.0290671    0.0481918      70.1680      17.6701      398.789
 161.7401      2556.93      70.6021   2455      0    0.0286857    0.0477111      70.4234      18.4300      408.383
 165.1097      2615.20      58.2728   2522      0    0.0231883    0.0341571      58.4809      19.2059      417.701
 168.4793      2667.57      52.3699   2545      0    0.0204182    0.0321603      51.9644      19.9978      426.841
 171.8489      2718.44      50.8641   2620      0    0.0194385    0.0405137      50.9288      20.8057      435.717
 175.2185      2766.83      48.3943   2658      0    0.0181354    0.0473538      48.2040      21.6297      444.421
 178.5881      2825.35      58.5246   2743      0    0.0215140    0.0767628      59.0130      22.4696      453.078
 181.9576      2883.86      58.5076   2764      0    0.0211058    0.0707100      58.3365      23.3255      461.692
 185.3272      2939.47      55.6098   2829      0    0.0196923    0.0386755      55.7096      24.1974      470.140
 188.6968      2991.41      51.9336   2883      0    0.0180591    0.0270299      52.0644      25.0853      478.124
 192.0664      3040.62      49.2100   2915      0    0.0168092    0.0262409      48.9988      25.9892      485.783
 195.4360      3081.08      40.4594   2951     20    0.0135798    0.0185492      40.0740      26.9091      493.082
 198.8056      3118.28      37.2043   2999     35    0.0122738    0.0176804      36.8092      27.8450      500.037
 202.1752      3153.95      35.6692   3062     38    0.0115697    0.0167089      35.4263      28.7969      506.714
 205.5448      3185.52      31.5675   3098     45    0.0100699    0.0146841      31.1966      29.7648      513.087
 208.9143      3215.80      30.2850   3131     48   0.00950374    0.0143198      29.7562      30.7487      519.062
 212.2839      3248.19      32.3851   3191     39    0.0100001    0.0157340      31.9104      31.7486      524.715
 215.6535      3277.13      28.9404   3246     42   0.00879574    0.0136386      28.5510      32.7645      530.022
 219.0231      3305.80      28.6769   3291     53   0.00858052    0.0130873      28.2385      33.7963      534.903
 222.3927      3334.90      29.0958   3342     55   0.00857299    0.0132952      28.6509      34.8442      539.475
 225.7623      3361.86      26.9583   3383     68   0.00782373    0.0140669      26.4677      35.9081      543.757
 229.1319      3391.07      29.2130   3441     65   0.00835247    0.0148052      28.7408      36.9880      547.786
 232.5014      3418.82      27.7448   3458     75   0.00781686    0.0138761      27.0307      38.0839      551.590
 235.8710      3445.50      26.6815   3537     67   0.00740914    0.0143149      26.2061      39.1958      555.142
 239.2406      3469.98      24.4874   3569     69   0.00670344    0.0122371      23.9246      40.3236      558.496
 242.6102      3493.62      23.6364   3663     52   0.00637994    0.0139574      23.3697      41.4675      561.695
 245.9798      3516.26      22.6417   3734     40   0.00602716    0.0133310      22.5054      42.6274      564.710
 249.3494      3535.82      19.5617   3780     19   0.00513644    0.0109626      19.4157      43.8033      567.611
 252.7190      3557.95      22.1225   3796     43   0.00573085    0.0184958      21.7543      44.9951      570.397
 256.0886      3582.78      24.8330   3866     48   0.00634782    0.0236272      24.5407      46.2030      573.071
 259.4581      3608.26      25.4786   3907     52   0.00642775    0.0196646      25.1132      47.4269      575.658
 262.8277      3629.42      21.1606   3965     54   0.00526948    0.0125952      20.8935      48.6667      578.137
 266.1973      3650.28      20.8585   4028     49   0.00512809    0.0108985      20.6559      49.9226      580.553
 269.5669      3671.05      20.7728   4093     40   0.00504275    0.0127907      20.6400      51.1945      582.926
 272.9365      3692.95      21.9020   4100     58   0.00525086    0.0123975      21.5285      52.4823      585.103
 276.3061      3713.77      20.8217   4119    116   0.00493060    0.0123655      20.3091      53.7862      587.188
 279.6756      3736.59      22.8190   4104    153   0.00533809    0.0144172      21.9075      55.1060      589.225
 283.0452      3757.93      21.3359   4149    196   0.00493135    0.0126835      20.4602      56.4419      591.168
 286.4148      3777.06      19.1307   4138    239   0.00436935    0.0119988      18.0804      57.7937      593.014
 289.7844      3794.61      17.5503   4179    256   0.00396152   0.00900492      16.5552      59.1616      594.799
 293.1540      3811.68      17.0745   4196    283   0.00380955   0.00891113      15.9849      60.5454      596.524
 296.5236      3828.43      16.7466   4254    274   0.00369370   0.00830193      15.7130      61.9453      598.149
 299.8932      3845.93      17.4957   4353    243   0.00381529   0.00828805      16.6080      63.3611      599.746
 303.2628      3862.32      16.3967   4397    227   0.00353573   0.00906892      15.5466      64.7930      601.316
 306.6323      3878.73      16.4047   4482    203   0.00349834   0.00891417      15.6795      66.2408      602.852
 310.0019      3894.49      15.7640   4585    162   0.00332496   0.00840177      15.2449      67.7047      604.324
 313.3715      3910.64      16.1480   4677    126   0.00336915   0.00852507      15.7575      69.1845      605.755
 316.7411      3927.83      17.1894   4694    136   0.00354804   0.00862388      16.6545      70.6804      607.148
 320.1107      3943.97      16.1426   4699    184   0.00329674   0.00849781      15.4914      72.1922      608.590
 323.4803      3959.78      15.8103   4736    211   0.00319504   0.00860561      15.1317      73.7200      609.940
 326.8499      3974.83      15.0481   4811    207   0.00300954   0.00829244      14.4789      75.2638      611.290
 330.2194      3990.37      15.5382   4862    186   0.00307568   0.00846123      14.9539      76.8237      612.599
 333.5890      4006.92      16.5526   4959    142   0.00324317   0.00842869      16.0829      78.3995      613.942
 336.9586      4023.62      16.6999   5067     93   0.00323918   0.00821580      16.4129      79.9913      615.255
 340.3282      4040.11      16.4892   5152     61   0.00316647   0.00845607      16.3136      81.5992      616.520
 343.6978      4057.15      17.0370   5190     66   0.00323946   0.00863025      16.8128      83.2230      617.728
 347.0674      4074.58      17.4299   5236     64   0.00328182   0.00896990      17.1836      84.8628      618.931
 350.4370      4091.24      16.6589   5299     70   0.00310632   0.00856710      16.4604      86.5186      620.098
 353.8065      4108.15      16.9112   5362     65   0.00312323   0.00817433      16.7467      88.1904      621.236
 357.1761      4125.06      16.9165   5426     46   0.00309455   0.00975650      16.7911      89.8783      622.372
 360.5457      4145.24      20.1790   5443     53   0.00365673    0.0114727      19.9036      91.5821      623.539
 363.9153      4164.50      19.2531   5542     58   0.00345649    0.0105351      19.1559      93.3019      624.717
 367.2849      4180.75      16.2519   5544     60   0.00289076   0.00829301      16.0264      95.0377      625.872
 370.6544      4197.02      16.2730   5625     60   0.00286812   0.00826638      16.1332      96.7895      626.951
 374.0241      4212.92      15.8959   5668     55   0.00277627   0.00813362      15.7359      98.5573      627.983
 377.3936      4229.91      16.9979   5731     47   0.00294215   0.00814661      16.8614      100.341      629.004
 380.7632      4246.16      16.2493   5782     34   0.00278755   0.00809381      16.1176      102.141      630.014
 384.1328      4262.25      16.0834   5877      7   0.00273480   0.00817285      16.0724      103.957      631.023
 387.5024      4279.28      17.0353   5914      0   0.00287136   0.00822381      16.9812      105.789      632.182
 390.8720      4295.88      16.5995   5976     23   0.00277367   0.00820047      16.5754      107.636      633.449
 394.2416      4313.38      17.5002   5942    113   0.00289909   0.00841891      17.2264      109.500      634.506
 397.6112      4331.52      18.1389   5909    173   0.00297929   0.00854140      17.6046      111.380      635.518
 400.9807      4349.60      18.0816   5933    190   0.00294484   0.00845004      17.4717      113.276      636.448
 404.3503      4368.30      18.6963   5984    193   0.00301948   0.00894530      18.0686      115.188      637.368
 407.7199      4392.38      24.0853   6075    176   0.00385748    0.0255450      23.4342      117.115      638.353
 411.0895      4413.48      21.0996   6184    126   0.00335151    0.0166405      20.7257      119.059      639.221
 414.4591      4428.91      15.4256   6277     50   0.00243021   0.00824641      15.2544      121.019      640.078
 417.8287      4445.28      16.3658   6389     38   0.00255751   0.00832442      16.3399      122.995      640.939
 421.1982      4461.99      16.7187   6437     19   0.00259164   0.00866069      16.6824      124.986      641.790
 424.5678      4478.51      16.5135   6484      0   0.00253942   0.00874209      16.4656      126.994      642.578
 427.9374      4495.36      16.8542   6561      0   0.00257136   0.00855543      16.8707      129.018      643.406
 431.3070      4511.79      16.4317   6578     29   0.00248721   0.00829071      16.3608      131.058      644.255
 434.6766      4527.98      16.1889   6617     48   0.00243139   0.00828293      16.0885      133.114      645.077
 438.0462      4544.12      16.1417   6683     56   0.00240558   0.00827063      16.0765      135.185      645.875
 441.4158      4561.54      17.4199   6678     65   0.00257621   0.00825903      17.2039      137.273      646.780
 444.7854      4578.86      17.3186   6719     91   0.00254174   0.00845021      17.0779      139.377      647.722
 448.1550      4595.61      16.7452   6755    107   0.00243903   0.00855287      16.4756      141.497      648.434
 451.5245      4611.77      16.1585   6796    111   0.00233595   0.00851231      15.8751      143.632      649.151
 454.8941      4626.43      14.6632   6850    118   0.00210399   0.00818802      14.4123      145.784      649.867
 458.2637      4639.48      13.0546   6894    141   0.00185939   0.00832772      12.8187      147.952      650.527
 461.6333      4654.64      15.1534   6906    177   0.00214249   0.00849875      14.7961      150.136      651.211
 465.0029      4670.03      15.3931   6928    192   0.00216054   0.00825440      14.9682      152.335      651.899
 468.3725      4685.82      15.7915   6925    232   0.00220048   0.00838426      15.2383      154.551      652.580
 471.7421      4699.54      13.7186   6961    243   0.00189791   0.00850005      13.2114      156.783      653.226
 475.1116      4714.19      14.6519   7063    237   0.00201262   0.00821110      14.2151      159.031      653.851
 478.4812      4727.62      13.4238   7077    235   0.00183089   0.00817409      12.9572      161.294      654.480
 481.8508      4742.74      15.1196   7175    218   0.00204770   0.00821435      14.6923      163.574      655.144
 485.2204      4758.84      16.1051   7246    204   0.00216598   0.00846507      15.6947      165.870      655.770
 488.5900      4773.77      14.9329   7295    183   0.00199441   0.00854528      14.5492      168.182      656.374
 491.9596      4789.89      16.1186   7387    162   0.00213801   0.00833839      15.7935      170.510      657.005
 495.3292      4803.51      13.6159   7404    160   0.00179370   0.00818853      13.2805      172.853      657.578
 498.6988      4817.82      14.3124   7539    131   0.00187268   0.00823966      14.1182      175.213      658.167
 502.0683      4830.35      12.5283   7536    162   0.00162821   0.00822053      12.2702      177.589      658.845
 505.4379      4842.47      12.1164   7564    191   0.00156412   0.00826470      11.8310      179.980      659.435
 508.8075      4855.93      13.4690   7593    186   0.00172720   0.00812086      13.1146      182.388      659.929
 512.1771      4870.30      14.3648   7702    158   0.00182990   0.00816182      14.0939      184.812      660.381
 515.5467      4884.05      13.7497   7780    121   0.00174007   0.00825069      13.5377      187.252      660.876
 518.9163      4896.17      12.1223   7874    104   0.00152412   0.00825725      12.0009      189.707      661.368
 522.2858      4909.15      12.9802   7880    111   0.00162140   0.00817133      12.7766      192.179      661.779
 525.6555      4921.90      12.7462   7899    168   0.00158195   0.00817331      12.4959      194.667      662.238
 529.0250      4933.85      11.9520   7836    258   0.00147389   0.00825975      11.5494      197.171      662.655
 532.3946      4945.37      11.5211   7880    294   0.00141175   0.00813604      11.1246      199.690      663.109
 535.7642      4956.04      10.6658   7857    323   0.00129870   0.00815522      10.2039      202.226      663.525
 539.1338      4966.69      10.6575   7939    335   0.00128953   0.00809387      10.2376      204.778      664.079
 542.5034      4980.00      13.3048   8007    323   0.00159985   0.00833530      12.8100      207.346      664.590
 545.8730      4989.10      9.10412   8077    304   0.00108794   0.00822730      8.78726      209.929      665.084
 549.2426      4998.28      9.17260   8111    280   0.00108939   0.00809216      8.83607      212.529      665.566
 552.6121      5008.73      10.4496   8178    285   0.00123344   0.00813342      10.0871      215.145      665.947
 555.9817      5019.44      10.7145   8274    276   0.00125705   0.00810952      10.4008      217.776      666.336
 559.3513      5029.14      9.69762   8268    269   0.00113086   0.00809147      9.34996      220.424      666.691
 562.7209      5037.71      8.57234   8393    238  0.000993634   0.00820751      8.33957      223.088      667.040
 567.8530      5053.47      15.7579  12894    370   0.00119022   0.00818699      15.3467      227.176      667.562
 571.2226      5061.98      8.51342   8521    228  0.000972083   0.00807959      8.28312      229.880      667.892
 574.7607      5070.50      8.51493   8996    241  0.000920370   0.00817582      8.27965      232.736      668.206
 578.4756      5080.77      10.2773   9592    222   0.00105129   0.00816388      10.0840      235.754      668.532
 582.3763      5090.53      9.75241  10015    308  0.000943890   0.00816696      9.45305      238.945      668.980
 586.4721      5100.61      10.0846  10544    382  0.000923203   0.00814346      9.73425      242.317      669.306
 590.7726      5111.92      11.3108  11215    350  0.000979091   0.00818239      10.9805      245.884      669.595
 595.2882      5122.86      10.9383  11851    354  0.000895072   0.00817305      10.6075      249.657      669.863
 600.0296      5135.27      12.4067  12564    362  0.000959384   0.00813241      12.0537      253.650      670.218
 605.0079      5146.70      11.4373  13425    256  0.000835526   0.00810703      11.2169      257.877      670.495
 610.2353      5156.99      10.2854  14238    243  0.000709583   0.00815981      10.1030      262.352      670.899
 615.7240      5167.00      10.0080  15202    176  0.000651820   0.00815977      9.90897      267.093      671.218
 621.4871      5179.08      12.0865  16168     99  0.000742891   0.00801494      12.0111      272.116      671.609
 627.5385      5191.66      12.5777  17218     53  0.000729300   0.00817198      12.5571      277.441      672.178
 633.8923      5204.66      12.9987  18088    190  0.000710760   0.00812256      12.8562      283.087      672.622
 640.5638      5216.96      12.2978  18813    591  0.000633874   0.00807844      11.9251      289.078      673.174
 647.5689      5226.16      9.19893  19744    833  0.000446774   0.00809578      8.82111      295.435      673.689
 654.9244      5235.32      9.16173  21055    807  0.000419101   0.00817951      8.82417      302.184      674.291
 662.6475      5246.34      11.0178  22802    390  0.000474518   0.00804781      10.8200      309.353      674.916
 670.7568      5254.39      8.05636  24236    468  0.000326525   0.00810357      7.91367      316.971      675.517
 679.2715      5265.18      10.7883  25546    693  0.000411307   0.00809764      10.5072      325.070      676.014
 688.2121      5274.17      8.98647  27240    656  0.000322128   0.00815137      8.77477      333.683      676.565
