# All data in this file is centered around the brightness peak.

# FILENAME = J1200-01_Rsub_ss.fits / Image file name
# PIXSIZE =      0.432087 / Pixel size [arcsec]
# FLUX_UNITS = erg/cm^2/sec / Flux units
# FLUX_SCALE =    7.6679330e-16 / Flux scale [above units / (DN/sec)]
# FLUXCAL =    1 / Flux calibration complete?
# PROFTYPE = brightness / Profile type (isophote/brightness/other)
# NUMGALS =        1 / Number of sources in image
#
# GALINDEX =        1 / Source index (1 - N)
# XCENTER =       1078.00 / X(center) [pixels]
# YCENTER =       1096.00 / Y(center) [pixels]
# AXERAT =       1.38871 / Axial ratio (a/b)
# PA_IMAGE =       24.2200 / Position angle, counterclockwise from Up [deg]
# PA =        24.118400 / Position angle, from N towards E [deg]
# SKYLEV =  -0.000511367 / Sky level [DN/sec]
# ERR_SKY_PIXEL =    0.00425034 / Sky RMS (pixel-to-pixel) [DN/sec]
# ERR_SKY_BOX =   0.000103384 / Sky RMS (box-to-box) [DN/sec]
# FLUXRAD_S =       644.100 / Sky aperture radius [pixels]
# FLUXRAD_F =       644.100 / Flux aperture radius [pixels]
# FLUXRAD_C =      -999.000 / Radius where SNR=3 [pixels]
# FLUX_S =        6968.6996 / Flux within sky aperture [DN/sec]
# FLUX_F =        6968.6996 / Flux within flux aperture [DN/sec]
# ERR_FLUX_S_SKY =       97.0281 / Uncertainty in FLUX_S due to sky [DN/sec]
# ERR_FLUX_F_SKY =       97.0281 / Uncertainty in FLUX_F due to sky [DN/sec]
# ERR_FLUX_S_CONT =        1138.0585 / Uncertainty in FLUX_S due to continuum [DN/sec]
# ERR_FLUX_F_CONT =        1138.0585 / Uncertainty in FLUX_F due to continuum [DN/sec]
# RE_F =        99.816823 / Flux aperture half-light radius [pixels]
# ERR_RE_F_SKY =        1.2184732 / Uncertainty in RE_F due to sky [pixels]
# ERR_RE_F_CONT =        1.4895983 / Uncertainty in RE_F due to continuum [pixels]
# SE_F =       0.11131774 / Face-on surface brightness within RE_F [DN/sec/pixel]
#  a[pix]  F(interior)     dF       N(good) N(bad) SurfBright  Sigma(SB)    dF(raw)  Sigma(F,sky)  Sigma(F,cntrat)
# all Flux and Surface Brightness values are in [DN/sec]
   0.0000      0.00000      0.00000      1      0     0.214280      0.00000     0.214280      0.00000      0.00000
   4.0015      7.43575      7.43575     36      0     0.205274    0.0271490      7.38985   0.00374493      5.00031
   8.0031      30.1971      22.7613    108      0     0.209452    0.0810052      22.6208    0.0149797      20.4792
  12.0046      73.5532      43.3561    184      0     0.239380    0.0952483      44.0459    0.0337044      45.8710
  16.0061      139.696      66.1433    254      0     0.260853    0.0897634      66.2567    0.0599189      75.6016
  20.0077      226.674      86.9778    330      0     0.266793    0.0782928      88.0416    0.0936233      106.432
  24.0092      325.703      99.0284    388      0     0.248528    0.0692082      96.4289     0.134818      136.804
  28.0107      432.918      107.215    474      0     0.227678     0.102218      107.919     0.183502      167.778
  32.0123      543.414      110.496    546      0     0.203360    0.0952303      111.034     0.239676      198.635
  36.0138      665.738      122.324    608      0     0.198642    0.0960600      120.774     0.303340      229.308
  40.0153      812.777      147.039    692      0     0.213642     0.120502      147.840     0.374493      260.608
  44.0169      983.448      170.672    764      0     0.224363     0.136882      171.413     0.453137      290.418
  48.0184      1171.32      187.872    830      0     0.225498     0.148369      187.163     0.539270      318.795
  52.0200      1371.08      199.756    904      0     0.220581     0.129768      199.405     0.632894      347.113
  56.0215      1613.58      242.500    990      0     0.247946     0.166515      245.466     0.734007      376.224
  60.0230      1818.06      204.485   1050      0     0.194658     0.107008      204.391     0.842610      403.827
  64.0246      2020.47      202.411   1120      0     0.180252     0.135769      201.882     0.958703      429.733
  68.0261      2249.58      229.111   1194      0     0.191664     0.155338      228.847      1.08229      455.428
  72.0276      2466.49      216.904   1250      2     0.171083     0.138849      213.854      1.21336      481.753
  76.0292      2662.95      196.466   1327      1     0.146586     0.126440      194.520      1.35192      506.619
  80.0307      2823.52      160.566   1422      0     0.113657     0.103011      161.621      1.49797      528.546
  84.0322      2957.06      133.545   1504      0    0.0899190    0.0742124      135.238      1.65152      549.160
  88.0338      3083.53      126.461   1552      0    0.0811889    0.0627489      126.005      1.81255      568.864
  92.0353      3204.36      120.834   1648      0    0.0741288    0.0660794      122.164      1.98107      587.792
  96.0368      3342.01      137.646   1690      0    0.0808491    0.0904635      136.635      2.15708      606.075
 100.0384      3489.95      147.939   1774      0    0.0833480    0.0902412      147.859      2.34058      623.834
 104.0399      3637.55      147.609   1842      0    0.0799005    0.0996496      147.177      2.53158      641.294
 108.0414      3754.98      117.425   1926      0    0.0611638    0.0644280      117.801      2.73006      658.178
 112.0430      3854.85      99.8658   1998      0    0.0501259    0.0487159      100.151      2.93603      674.472
 116.0445      3947.29      92.4398   2048      0    0.0447706    0.0573628      91.6902      3.14949      689.733
 120.0461      4044.18      96.8938   2142      0    0.0453368    0.0732863      97.1115      3.37044      704.206
 124.0476      4137.92      93.7415   2198      0    0.0424239    0.0530174      93.2478      3.59888      718.379
 128.0491      4234.41      96.4862   2280     22    0.0422797    0.0508396      96.3978      3.83481      732.388
 132.0506      4352.92      118.518   2318     32    0.0503359    0.0699137      116.679      4.07823      746.231
 136.0522      4507.89      154.963   2401     35    0.0638500     0.179488      153.304      4.32914      760.197
 140.0537      4700.33      192.441   2447     53    0.0769941     0.296714      188.404      4.58754      774.684
 144.0553      4862.00      161.672   2507     57    0.0628614     0.180211      157.594      4.85343      788.441
 148.0568      4990.16      128.163   2559     75    0.0484672    0.0814777      124.028      5.12681      801.627
 152.0583      5098.94      108.776   2614    102    0.0400387    0.0612290      104.661      5.40768      814.555
 156.0599      5185.80      86.8644   2679    105    0.0311429    0.0432969      83.4318      5.69604      827.266
 160.0614      5261.89      76.0841   2755    107    0.0265874    0.0347355      73.2482      5.99189      839.293
 164.0629      5337.16      75.2708   2867     89    0.0256537    0.0327924      73.5492      6.29523      850.983
 168.0645      5418.65      81.4901   2938     60    0.0271040    0.0370978      79.6315      6.60606      862.247
 172.0660      5491.46      72.8100   3053     25    0.0236472    0.0362869      72.1950      6.92438      872.968
 176.0675      5553.03      61.5726   3136     16    0.0195379    0.0266429      61.2707      7.25019      883.226
 180.0691      5621.76      68.7275   3211     11    0.0213181    0.0324510      68.4525      7.58349      893.191
 184.0706      5699.65      77.8892   3303     15    0.0236290    0.0436797      78.0465      7.92428      903.102
 188.0721      5793.99      94.3374   3364      0    0.0280032    0.0526989      94.2026      8.27256      912.829
 192.0737      5891.32      97.3364   3409     25    0.0282853    0.0505444      96.4246      8.62833      922.210
 196.0752      5966.45      75.1249   3414     64    0.0213806    0.0345250      72.9935      8.99159      931.053
 200.0767      6039.54      73.0967   3532     80    0.0203831    0.0523967      71.9933      9.36233      939.305
 204.0783      6096.17      56.6253   3559     85    0.0154773    0.0397427      55.0838      9.74057      946.945
 208.0798      6134.16      37.9916   3710     46    0.0101826    0.0165627      37.7775      10.1263      954.093
 212.0813      6175.90      41.7399   3756     54    0.0109742    0.0225107      41.2189      10.5195      960.961
 216.0829      6221.37      45.4725   3809     77    0.0117320    0.0287569      44.6873      10.9202      967.612
 220.0844      6267.32      45.9481   3794    114    0.0116372    0.0284714      44.1515      11.3284      974.026
 224.0860      6309.14      41.8190   3898    142    0.0104006    0.0209937      40.5417      11.7441      980.158
 228.0875      6349.77      40.6343   3924    172   0.00992712    0.0199756      38.9540      12.1673      986.024
 232.0890      6388.42      38.6462   3955    191   0.00927722    0.0225761      36.6914      12.5980      991.697
 236.0905      6428.85      40.4301   4023    231   0.00953952    0.0418506      38.3775      13.0361      997.214
 240.0921      6466.22      37.3739   4033    271   0.00867018    0.0332792      34.9668      13.4818      1002.55
 244.0936      6492.02      25.7945   4084    280   0.00588505    0.0145128      24.0346      13.9349      1007.67
 248.0952      6512.85      20.8304   4224    246   0.00467522   0.00987783      19.7481      14.3955      1012.63
 252.0967      6533.16      20.3063   4345    217   0.00448465    0.0110177      19.4858      14.8636      1017.43
 256.0982      6552.47      19.3153   4356    238   0.00419861    0.0131810      18.2892      15.3393      1022.09
 260.0998      6570.12      17.6467   4463    211   0.00377644    0.0104796      16.8543      15.8223      1026.50
 264.1013      6585.00      14.8864   4559    169   0.00313708   0.00880660      14.3020      16.3129      1030.66
 268.1028      6598.09      13.0861   4595    219   0.00271623   0.00863543      12.4811      16.8110      1034.65
 272.1044      6608.55      10.4567   4658    212   0.00213829   0.00827129      9.96014      17.3166      1038.43
 276.1059      6617.20      8.65086   4683    291   0.00174320   0.00742461      8.16342      17.8296      1042.01
 280.1075      6624.05      6.85333   4684    348   0.00136112   0.00553303      6.37547      18.3502      1045.38
 284.1090      6629.94      5.89136   4688    406   0.00115347   0.00477711      5.40745      18.8782      1048.54
 288.1105      6635.52      5.57827   4753    451   0.00107689   0.00408129      5.11847      19.4137      1051.57
 292.1121      6640.14      4.62014   4814    442  0.000879616   0.00428517      4.23447      19.9568      1054.56
 296.1136      6644.50      4.36036   4905    419  0.000818868   0.00404462      4.01655      20.5073      1057.30
 300.1151      6649.17      4.66768   4955    433  0.000864817   0.00400071      4.28517      21.0653      1059.85
 304.1166      6653.75      4.57864   5042    448  0.000837083   0.00407924      4.22057      21.6307      1062.30
 308.1182      6658.24      4.48967   5123    397  0.000810083   0.00404476      4.15005      22.2037      1064.62
 312.1197      6664.07      5.83046   5229    393   0.00103844   0.00405279      5.42998      22.7842      1066.88
 316.1212      6669.12      5.05298   5337    353  0.000888498   0.00404323      4.74191      23.3721      1069.08
 320.1228      6674.33      5.20982   5408    332  0.000904554   0.00400660      4.89183      23.9676      1071.24
 324.1243      6678.68      4.34670   5526    308  0.000745320   0.00425676      4.11864      24.5705      1073.29
 328.1259      6682.36      3.68082   5693    247  0.000623398   0.00395457      3.54901      25.1809      1075.29
 332.1274      6687.03      4.67287   5789    205  0.000781823   0.00391322      4.52597      25.7988      1077.16
 336.1289      6691.30      4.27002   5831    203  0.000705859   0.00397649      4.11586      26.4243      1079.00
 340.1305      6696.32      5.01845   5926    182  0.000819770   0.00391521      4.85796      27.0571      1080.84
 344.1320      6701.49      5.17321   6017    187  0.000835163   0.00417596      5.02518      27.6975      1082.58
 348.1335      6706.17      4.67425   6092    168  0.000745892   0.00398508      4.54397      28.3454      1084.27
 352.1351      6710.83      4.66159   6133    177  0.000735367   0.00404320      4.51001      29.0008      1085.92
 356.1366      6715.71      4.87733   6224    212  0.000760706   0.00398978      4.73464      29.6636      1087.49
 360.1381      6718.96      3.25780   6209    261  0.000502435   0.00389119      3.11962      30.3340      1089.00
 364.1396      6722.36      3.40094   6248    306  0.000518715   0.00389482      3.24093      31.0118      1090.42
 368.1412      6725.58      3.21551   6262    382  0.000485074   0.00389815      3.03753      31.6971      1091.78
 372.1428      6729.05      3.47225   6251    457  0.000518135   0.00403276      3.23886      32.3899      1093.16
 376.1443      6734.11      5.06035   6261    507  0.000747046   0.00391359      4.67725      33.0902      1094.51
 380.1458      6738.37      4.25303   6331    519  0.000621222   0.00393834      3.93295      33.7980      1095.81
 384.1473      6744.09      5.72851   6397    525  0.000827974   0.00389324      5.29655      34.5133      1097.03
 388.1489      6747.79      3.69164   6525    459  0.000528044   0.00388392      3.44548      35.2361      1098.26
 392.1504      6752.02      4.23000   6575    457  0.000598846   0.00392861      3.93741      35.9663      1099.40
 396.1519      6756.16      4.14631   6787    357  0.000581039   0.00389952      3.94351      36.7041      1100.50
 400.1535      6760.24      4.07371   7017    217  0.000565125   0.00390639      3.96549      37.4493      1101.55
 404.1550      6763.28      3.04373   7022    220  0.000418037   0.00383809      2.93546      38.2021      1102.59
 408.1566      6767.38      4.09787   7151    251  0.000557276   0.00382852      3.98508      38.9623      1103.66
 412.1581      6771.34      3.96396   7156    266  0.000533807   0.00384387      3.81992      39.7300      1104.64
 416.1596      6775.06      3.71562   7186    302  0.000495529   0.00389368      3.56087      40.5052      1105.57
 420.1612      6779.30      4.24672   7264    324  0.000560938   0.00389347      4.07465      41.2879      1106.48
 424.1627      6782.75      3.44795   7341    313  0.000451116   0.00392712      3.31164      42.0781      1107.51
 428.1642      6788.04      5.29308   7367    329  0.000686021   0.00390687      5.05392      42.8757      1108.48
 432.1657      6791.90      3.85589   7491    315  0.000495102   0.00382195      3.70881      43.6809      1109.30
 436.1673      6795.69      3.79321   7504    340  0.000482566   0.00385992      3.62117      44.4936      1110.17
 440.1689      6799.23      3.53611   7621    281  0.000445745   0.00386076      3.39702      45.3137      1111.03
 444.1704      6803.12      3.88976   7712    272  0.000485893   0.00392970      3.74720      46.1413      1111.79
 448.1719      6806.40      3.27913   7842    280  0.000405942   0.00383757      3.18339      46.9765      1112.52
 452.1734      6809.62      3.22561   7872    278  0.000395765   0.00384424      3.11546      47.8191      1113.28
 456.1750      6811.88      2.25544   7994    248  0.000274294   0.00388788      2.19270      48.6692      1114.03
 460.1765      6815.84      3.96330   8125    191  0.000477781   0.00384428      3.88197      49.5268      1114.72
 464.1780      6818.97      3.12414   8175    149  0.000373361   0.00382251      3.05222      50.3918      1115.44
 468.1796      6823.28      4.30964   8239    189  0.000510614   0.00387450      4.20695      51.2644      1116.11
 472.1811      6827.40      4.12761   8294    250  0.000484885   0.00382882      4.02164      52.1445      1116.75
 476.1826      6831.29      3.88406   8335    241  0.000452421   0.00383775      3.77093      53.0320      1117.36
 480.1842      6835.49      4.19906   8362    282  0.000485023   0.00389691      4.05577      53.9271      1117.96
 484.1857      6839.56      4.07294   8397    327  0.000466551   0.00391218      3.91763      54.8296      1118.66
 488.1873      6844.29      4.72505   8461    319  0.000536796   0.00379723      4.54183      55.7396      1119.38
 492.1888      6848.24      3.95356   8599    293  0.000445484   0.00384479      3.83071      56.6571      1119.96
 496.1903      6851.70      3.45998   8735    249  0.000386710   0.00388934      3.37791      57.5821      1120.49
 500.1918      6856.16      4.45857   8782    238  0.000494317   0.00386805      4.34109      58.5146      1121.05
 504.1934      6859.64      3.48140   8904    196  0.000382902   0.00389114      3.40936      59.4546      1121.63
 508.1949      6862.38      2.73687   9016    118  0.000298636   0.00384552      2.69251      60.4020      1122.18
 512.1965      6866.36      3.98667   9156     76  0.000431594   0.00386996      3.95167      61.3570      1122.70
 516.1980      6869.99      3.62792   9161    141  0.000389702   0.00387340      3.57006      62.3195      1123.21
 520.1995      6872.39      2.40258   9191    191  0.000256087   0.00381624      2.35370      63.2894      1123.76
 524.2010      6875.92      3.52322   9247    211  0.000372655   0.00382867      3.44594      64.2668      1124.29
 528.2026      6879.42      3.50154   9274    232  0.000367546   0.00383878      3.40862      65.2517      1124.83
 532.2041      6883.57      4.15385   9359    277  0.000432727   0.00383742      4.04989      66.2441      1125.33
 536.2056      6886.61      3.04223   9233    419  0.000314549   0.00380768      2.90423      67.2440      1125.83
 540.2072      6890.25      3.63633   9255    515  0.000373181   0.00382862      3.45379      68.2514      1126.39
 544.2087      6894.00      3.75411   9204    594  0.000382421   0.00376866      3.51981      69.2663      1126.97
 548.2103      6895.71      1.70404   9296    604  0.000172316   0.00381541      1.60185      70.2887      1127.53
 552.2118      6899.06      3.35369   9384    584  0.000336667   0.00377411      3.15928      71.3185      1128.01
 556.2133      6902.07      3.01202   9497    559  0.000300182   0.00384096      2.85083      72.3559      1128.52
 560.2149      6905.89      3.81760   9569    479  0.000377742   0.00386440      3.61462      73.4007      1128.97
 564.2164      6910.23      4.34340   9811    383  0.000426710   0.00379694      4.18646      74.4530      1129.40
 568.2180      6914.27      4.03851   9956    280  0.000393951   0.00378201      3.92217      75.5129      1129.79
 572.2195      6917.32      3.04756  10133    211  0.000295200   0.00379457      2.99126      76.5802      1130.29
 576.2210      6920.17      2.84581  10245    171  0.000273738   0.00383895      2.80444      77.6550      1130.72
 580.2226      6922.54      2.37101  10307    163  0.000226484   0.00388209      2.33437      78.7373      1131.14
 584.2241      6924.58      2.03902  10289    221  0.000193436   0.00385807      1.99026      79.8270      1131.58
 588.2256      6927.62      3.04518  10273    335  0.000286915   0.00385930      2.94748      80.9243      1132.10
 592.2272      6930.90      3.27349  10347    369  0.000306336   0.00383923      3.16966      82.0290      1132.62
 596.2287      6934.46      3.56618  10363    399  0.000331479   0.00550713      3.43512      83.1413      1133.07
 600.2302      6936.53      2.06625  10408    392  0.000190775   0.00386525      1.98558      84.2610      1133.54
 604.2318      6939.89      3.36487  10511    425  0.000308609   0.00374272      3.24379      85.3882      1133.92
 608.2333      6943.77      3.88233  10521    411  0.000353720   0.00380576      3.72149      86.5230      1134.31
 612.2348      6946.44      2.66118  10577    481  0.000240870   0.00381954      2.54768      87.6652      1134.67
 616.2364      6949.46      3.02683  10584    558  0.000272179   0.00385074      2.88075      88.8149      1135.04
 620.2379      6952.70      3.24003  10601    635  0.000289467   0.00385382      3.06864      89.9720      1135.44
 624.2394      6955.80      3.09954  10579    653  0.000275136   0.00377997      2.91066      91.1367      1135.91
 628.2410      6957.99      2.18650  10662    712  0.000192847   0.00383997      2.05613      92.3089      1136.35
 632.2425      6960.77      2.78245  10658    720  0.000243852   0.00378845      2.59897      93.4885      1136.73
 636.2440      6963.51      2.73881  10808    656  0.000238513   0.00379514      2.57785      94.6757      1137.16
 644.1000      6968.70      5.18928  21810    942  0.000228057   0.00389419      4.97393      97.0281      1138.06
 648.1015      6971.31      2.60807  11387    317  0.000222958   0.00385992      2.53882      98.2374      1138.44
 652.3032      6973.88      2.57485  12025    345  0.000208313   0.00385857      2.50497      99.5153      1138.88
 656.7148      6976.31      2.43005  12670    396  0.000186005   0.00382423      2.35669      100.866      1139.28
 661.3470      6978.97      2.65408  13321    447  0.000192154   0.00376119      2.55969      102.294      1139.57
 666.2110      6981.18      2.20899  14143    487  0.000151221   0.00383164      2.13872      103.804      1139.86
 671.3181      6982.82      1.64389  14927    517  0.000106380   0.00386795      1.58793      105.402      1140.23
 676.6805      6985.17      2.35293  15876    484  0.000143888   0.00380308      2.28436      107.092      1140.59
 682.3110      6989.21      4.04207  16922    428  0.000233505   0.00379714      3.95137      108.882      1140.93
 688.2231      6992.80      3.58552  17845    429  0.000195605   0.00383442      3.49057      110.777      1141.35
 694.4308      6997.04      4.24382  18914    548  0.000218564   0.00381338      4.13392      112.784      1141.73
 700.9489      7002.12      5.07893  19890    654  0.000246843   0.00382792      4.90971      114.912      1142.29
 707.7929      7004.50      2.37578  21150    692  0.000108924   0.00382447      2.30374      117.166      1142.85
 714.9791      7008.59      4.08885  22297    835  0.000176779   0.00387796      3.94163      119.558      1143.41
 722.5245      7015.17      6.58261  23657    877  0.000268267   0.00382352      6.34638      122.095      1144.01
 730.4473      7019.20      4.02564  25142    910  0.000154582   0.00382939      3.88651      124.787      1144.48
 738.7662      7022.03      2.83364  26942    694  0.000102484   0.00383459      2.76113      127.645      1145.01
 747.5011      7026.89      4.86443  29074    300  0.000165630   0.00380889      4.81553      130.682      1145.54
 756.6726      7032.12      5.22252  30626    576  0.000167341   0.00385023      5.12498      133.908      1146.15
 766.3028      7036.23      4.11053  32372    792  0.000123889   0.00384294      4.01054      137.338      1146.72
 776.4144      7039.79      3.56022  34294   1036  0.000100885   0.00381636      3.45976      140.987      1147.33
