# All data in this file is centered around the brightness peak.

# FILENAME = J1304-10_R_ss.fits / Image file name
# PIXSIZE =      0.431957 / Pixel size [arcsec]
# FLUX_UNITS = erg/cm^2/Angstrom/sec / Flux units
# FLUX_SCALE =    4.5297359e-19 / Flux scale [above units / (DN/sec)]
# FLUXCAL =    1 / Flux calibration complete?
# PROFTYPE = brightness / Profile type (isophote/brightness/other)
# NUMGALS =        1 / Number of sources in image
#
# GALINDEX =        1 / Source index (1 - N)
# XCENTER =       1102.00 / X(center) [pixels]
# YCENTER =       958.000 / Y(center) [pixels]
# AXERAT =       1.77165 / Axial ratio (a/b)
# PA_IMAGE =       5.69680 / Position angle, counterclockwise from Up [deg]
# PA =        5.6148079 / Position angle, from N towards E [deg]
# SKYLEV =       6.55930 / Sky level [DN/sec]
# ERR_SKY_PIXEL =      0.148301 / Sky RMS (pixel-to-pixel) [DN/sec]
# ERR_SKY_BOX =    0.00277672 / Sky RMS (box-to-box) [DN/sec]
# FLUXRAD_S =       616.686 / Sky aperture radius [pixels]
# FLUXRAD_F =       616.686 / Flux aperture radius [pixels]
# FLUXRAD_C =      -999.000 / Radius where SNR=3 [pixels]
# FLUX_S =        253664.20 / Flux within sky aperture [DN/sec]
# FLUX_F =        253664.20 / Flux within flux aperture [DN/sec]
# ERR_FLUX_S_SKY =       1872.55 / Uncertainty in FLUX_S due to sky [DN/sec]
# ERR_FLUX_F_SKY =       1872.55 / Uncertainty in FLUX_F due to sky [DN/sec]
# RE_F =        131.68368 / Flux aperture half-light radius [pixels]
# ERR_RE_F_SKY =        1.1180528 / Uncertainty in RE_F due to sky [pixels]
# SE_F =        2.3281737 / Face-on surface brightness within RE_F [DN/sec/pixel]
#  a[pix]  F(interior)     dF       N(good) N(bad) SurfBright  Sigma(SB)    dF(raw)  Sigma(F,sky)
# all Flux and Surface Brightness values are in [DN/sec]
   0.0000      0.00000      0.00000      1      0      67.5602      0.00000      67.5602      0.00000
   8.3289      6704.95      6704.95    120      2      54.5065      14.4910      6540.78     0.341570
  16.6578      18340.7      11635.8    281     93      31.5302      12.4247      8859.98      1.36628
  24.9867      28272.4      9931.64    439    171      16.1474      5.00986      7088.72      3.07413
  33.3156      36753.5      8481.11    770     92      9.84933      2.33813      7583.99      5.46512
  41.6445      44804.7      8051.20   1110      0      7.27228      1.29936      8072.24      8.53925
  49.9734      52913.0      8108.30   1350      0      5.99224     0.942843      8089.53      12.2965
  58.3023      60970.5      8057.54   1608      0      5.03862     0.666624      8102.10      16.7369
  66.6312      69159.7      8189.16   1828      0      4.43813     0.552378      8112.91      21.8605
  74.9601      77506.1      8346.43   2096      0      3.99121     0.484215      8365.58      27.6672
  83.2890      85800.6      8294.48   2348      0      3.54885     0.404128      8332.71      34.1570
  91.6179      93894.7      8094.07   2590      0      3.13328     0.460184      8115.20      41.3300
  99.9468      101726.      7831.34   2741     61      2.76797     0.503790      7586.99      49.1861
 108.2757      108867.      7140.92   2932    154      2.32202     0.394298      6808.18      57.7253
 116.6046      115358.      6490.70   3213    113      1.95425     0.411712      6279.00      66.9477
 124.9335      121579.      6221.21   3417    149      1.74393     0.404823      5959.01      76.8533
 133.2624      127722.      6143.44   3597    189      1.61102     0.338324      5794.85      87.4419
 141.5913      133993.      6270.57   3906    182      1.54470     0.368186      6033.62      98.7138
 149.9202      140406.      6413.36   4227     87      1.48960     0.425267      6296.55      110.669
 158.2491      146885.      6478.53   4552      0      1.42340     0.433339      6479.32      123.307
 166.5780      153197.      6312.00   4780      0      1.31569     0.456292      6289.01      136.628
 174.9069      159015.      5818.02   5038      0      1.15357     0.399679      5811.68      150.632
 183.2358      164302.      5287.02   5242     68     0.999528     0.353719      5239.52      165.320
 191.5647      169163.      4861.72   5432     98     0.878273     0.334196      4770.78      180.691
 199.8936      173821.      4657.69   5728     36     0.805610     0.326539      4614.54      196.744
 208.2225      178386.      4564.94   6042      0     0.757342     0.343749      4575.86      213.481
 216.5514      182909.      4522.43   6282      0     0.720866     0.327461      4528.48      230.901
 224.8803      187318.      4409.51   6484     32     0.676342     0.310788      4385.40      249.005
 233.2092      191552.      4234.33   6681     73     0.625856     0.315405      4181.34      267.791
 241.5381      195689.      4137.01   6831    165     0.590016     0.315230      4030.40      287.260
 249.8670      199798.      4109.08   6961    319     0.566167     0.305892      3941.09      307.413
 258.1959      203816.      4017.64   7163    351     0.535419     0.336506      3835.21      328.249
 266.5248      207738.      3922.06   7370    352     0.506088     0.371472      3729.87      349.768
 274.8537      211326.      3587.81   7665    351     0.448713     0.338192      3439.38      371.970
 283.1826      214427.      3101.15   7914    342     0.376270     0.255687      2977.80      394.855
 291.5115      217294.      2866.89   8184    310     0.337765     0.231005      2764.27      418.423
 299.8404      220002.      2708.26   8432    278     0.310088     0.214438      2614.66      442.675
 308.1693      222483.      2480.66   8720    270     0.276246     0.193703      2408.86      467.609
 316.4982      224723.      2239.89   9048    186     0.242783     0.169954      2196.70      493.227
 324.8271      226790.      2066.77   9219    259     0.218199     0.168742      2011.57      519.528
 333.1560      228780.      1990.32   9388    294     0.204810     0.163689      1922.75      546.512
 341.4849      230757.      1976.80   9717    253     0.198394     0.158726      1927.80      574.179
 349.8138      232663.      1906.39  10054    168     0.186719     0.157659      1877.27      602.530
 358.1427      234451.      1787.45  10377     69     0.170949     0.158744      1773.94      631.563
 366.4716      236128.      1677.33  10704      0     0.156730     0.151496      1677.64      661.280
 374.8004      237730.      1602.02  10940      0     0.146329     0.151682      1600.84      691.679
 383.1294      239199.      1468.89  11196      0     0.131219     0.147507      1469.13      722.762
 391.4583      240538.      1339.08  11452      0     0.117051     0.146507      1340.47      754.528
 399.7872      241674.      1136.05  11656      0    0.0972129     0.139365      1133.11      786.978
 408.1161      242665.      990.836  11931      7    0.0830392     0.140418      990.741      820.110
 416.4449      243521.      856.303  12119     75    0.0703145     0.137079      852.142      853.925
 424.7739      244278.      757.015  12307    137    0.0609305     0.136811      749.872      888.424
 433.1028      244972.      694.162  12452    216    0.0547869     0.136661      682.206      923.606
 441.4317      245606.      634.230  12628    254    0.0491031     0.135757      620.074      959.470
 449.7606      246194.      587.468  12756    448    0.0446327     0.135570      569.335      996.018
 458.0894      246737.      543.002  12630    766    0.0404975     0.135272      511.484      1033.25
 466.4184      247228.      490.772  12760    862    0.0359424     0.134631      458.626      1071.16
 474.7473      247681.      452.952  13069    867    0.0325857     0.136267      425.863      1109.76
 483.0762      248138.      457.347  13311    845    0.0323295     0.137395      430.338      1149.04
 491.4051      248540.      401.563  13744    650    0.0279010     0.134189      383.472      1189.01
 499.7339      248910.      370.082  13972    634    0.0252815     0.131737      353.233      1229.65
 508.0629      249296.      386.658  14280    604    0.0259772     0.134852      370.955      1270.98
 516.3917      249708.      411.850  14699    425    0.0272200     0.135988      400.107      1313.00
 524.7206      250112.      404.303  15040    342    0.0262935     0.138909      395.454      1355.69
 533.0496      250446.      333.246  15476    154    0.0213311     0.135982      330.121      1399.07
 541.3785      250746.      300.450  15743    125    0.0189336     0.133229      298.072      1443.13
 549.7073      250975.      228.764  15960    168    0.0141961     0.131470      226.570      1487.88
 558.0363      251245.      269.843  16115    287    0.0164935     0.132365      265.792      1533.31
 566.3652      251551.      305.730  16093    447    0.0184101     0.134409      296.273      1579.42
 574.6940      251867.      316.691  16302    542    0.0187918     0.136173      306.344      1626.22
 583.0229      252163.      295.315  16564    568    0.0172712     0.135611      286.080      1673.69
 591.3519      252476.      313.479  16691    641    0.0180735     0.136945      301.665      1721.85
 599.6807      252796.      319.533  16848    754    0.0181649     0.148815      306.042      1770.70
 608.0096      253116.      320.077  17022    780    0.0179447     0.146690      305.455      1820.23
 616.6860      253664.      548.589  18110    752    0.0291146     0.175238      527.266      1872.55
 625.0149      254161.      496.740  17718    642    0.0270864     0.171103      479.917      1923.47
 633.7602      254556.      394.738  19047    449    0.0202215     0.150364      385.160      1977.67
 642.9429      254879.      323.061  20458    318    0.0155401     0.138022      317.920      2035.40
 652.5846      255118.      239.146  21593    585    0.0107966     0.133013      233.132      2096.90
 662.7084      255426.      308.493  22863    705    0.0130649     0.139096      298.704      2162.47
 673.3384      255780.      353.225  24194   1046    0.0140257     0.142422      339.338      2232.40
 684.4999      256062.      282.877  25616   1260    0.0105258     0.136092      269.628      2307.02
 696.2195      256352.      289.231  27321   1349    0.0100799     0.135351      275.392      2386.70
 708.5251      256620.      268.495  29301   1361   0.00875921     0.135632      256.654      2471.81
 721.4460      257139.      518.964  31672   1092    0.0158397     0.147528      501.675      2562.79
 735.0128      257527.      388.323  34377    657    0.0110826     0.136640      380.988      2660.08
 749.2581      257801.      273.177  37085    455   0.00728596     0.134810      270.200      2764.19
