# All data in this file is centered around the brightness peak.

# FILENAME = J1429-00_R_ss.fits / Image file name
# PIXSIZE =      0.432083 / Pixel size [arcsec]
# FLUX_UNITS = erg/cm^2/Angstrom/sec / Flux units
# FLUX_SCALE =    5.8139285e-19 / Flux scale [above units / (DN/sec)]
# FLUXCAL =    1 / Flux calibration complete?
# PROFTYPE = brightness / Profile type (isophote/brightness/other)
# NUMGALS =        1 / Number of sources in image
#
# GALINDEX =        1 / Source index (1 - N)
# XCENTER =       1128.64 / X(center) [pixels]
# YCENTER =       1175.11 / Y(center) [pixels]
# AXERAT =       1.33022 / Axial ratio (a/b)
# PA_IMAGE =       84.7661 / Position angle, counterclockwise from Up [deg]
# PA =        84.678372 / Position angle, from N towards E [deg]
# SKYLEV =       7.69769 / Sky level [DN/sec]
# ERR_SKY_PIXEL =      0.124394 / Sky RMS (pixel-to-pixel) [DN/sec]
# ERR_SKY_BOX =    0.00290839 / Sky RMS (box-to-box) [DN/sec]
# FLUXRAD_S =       241.515 / Sky aperture radius [pixels]
# FLUXRAD_F =       241.515 / Flux aperture radius [pixels]
# FLUXRAD_C =      -999.000 / Radius where SNR=3 [pixels]
# FLUX_S =        16355.293 / Flux within sky aperture [DN/sec]
# FLUX_F =        16355.293 / Flux within flux aperture [DN/sec]
# FLUX_T =        16380.425 / Total flux [DN/sec]
# ERR_FLUX_S_SKY =       400.652 / Uncertainty in FLUX_S due to sky [DN/sec]
# ERR_FLUX_F_SKY =       400.652 / Uncertainty in FLUX_F due to sky [DN/sec]
# ERR_FLUX_T_SKY =        402.21057 / Uncertainty in FLUX_T due to sky [DN/sec]
# RE_F =        52.299815 / Flux aperture half-light radius [pixels]
# RE_T =        52.381538 / Total flux half-light radius [pixels]
# ERR_RE_F_SKY =        1.1132994 / Uncertainty in RE_F due to sky [pixels]
# ERR_RE_T_SKY =        1.1179884 / Uncertainty in RE_T due to sky [pixels]
# SE_F =       0.95165195 / Face-on surface brightness within RE_F [DN/sec/pixel]
# SE_T =       0.95014261 / Face-on surface brightness within RE_T [DN/sec/pixel]
#  a[pix]  F(interior)     dF       N(good) N(bad) SurfBright  Sigma(SB)    dF(raw)  Sigma(F,sky)
# all Flux and Surface Brightness values are in [DN/sec]
   0.0000      0.00000      0.00000      0      0      0.00000      0.00000      0.00000      0.00000
   3.3600      88.4971      88.4971     26      0      3.31911     0.374378      86.2970    0.0775460
   6.7200      372.290      283.793     80      0      3.54792     0.911805      283.834     0.310184
  10.0800      826.353      454.063    136      0      3.40596      1.38392      463.210     0.697914
  13.4400      1399.93      573.577    184      0      3.07317      1.30817      565.464      1.24074
  16.8000      2019.71      619.782    240      0      2.58279      1.07103      619.871      1.93865
  20.1600      2646.36      626.648    295      0      2.13661     0.812208      630.299      2.79166
  23.5201      3252.47      606.108    341      0      1.74864     0.612012      596.286      3.79975
  26.8801      3848.53      596.058    407      0      1.49036     0.499463      606.576      4.96294
  30.2401      4435.81      587.286    452      0      1.29567     0.486777      585.643      6.28123
  33.6001      5016.94      581.127    508      0      1.14712     0.412062      582.739      7.75460
  36.9601      5590.98      574.044    550      0      1.02523     0.338257      563.874      9.38307
  40.3201      6165.28      574.294    620      0     0.936483     0.297073      580.619      11.1666
  43.6801      6732.74      567.466    662      0     0.851321     0.243014      563.574      13.1053
  47.0401      7290.76      558.015    728      0     0.775132     0.209003      564.296      15.1990
  50.4001      7826.50      535.745    770      0     0.692872     0.259661      533.512      17.4478
  53.7601      8343.15      516.646    831      0     0.625064     0.291962      519.428      19.8518
  57.1201      8839.59      496.441    876      0     0.564218     0.264053      494.255      22.4108
  60.4801      9305.58      465.995    934      0     0.499352     0.253119      466.395      25.1249
  63.8402      9742.78      437.193    993      0     0.443164     0.241290      440.062      27.9941
  67.2002      10156.0      413.205   1031      0     0.397369     0.238629      409.688      31.0184
  70.5602      10528.1      372.074   1097      0     0.340360     0.222661      373.375      34.1978
  73.9202      10866.1      338.087   1150      0     0.294886     0.210957      339.119      37.5323
  77.2802      11177.9      311.789   1203      0     0.259861     0.208445      312.613      41.0218
  80.6402      11469.6      291.632   1238      0     0.232718     0.205091      288.105      44.6665
  84.0002      11744.2      274.593   1324      0     0.210178     0.204055      278.276      48.4662
  87.3602      11984.1      239.939   1340      0     0.176451     0.187831      236.444      52.4211
  90.7202      12192.6      208.480   1418      0     0.147531     0.160715      209.199      56.5310
  94.0802      12389.9      197.320   1466      0     0.134556     0.149458      197.259      60.7961
  97.4402      12561.4      171.460   1524      0     0.112819     0.144259      171.936      65.2162
 100.8002      12735.0      173.671   1564      0     0.110400     0.147233      172.665      69.7914
 104.1603      12902.9      167.917   1634      0     0.103242     0.139370      168.698      74.5217
 107.5203      13057.1      154.150   1673      0    0.0917692     0.133399      153.530      79.4071
 110.8803      13213.0      155.894   1734      0    0.0899517     0.129388      155.976      84.4476
 114.2403      13363.6      150.604   1790      0    0.0843057     0.135894      150.907      89.6432
 117.6003      13503.3      139.663   1839      0    0.0759146     0.136770      139.607      94.9939
 120.9603      13639.0      135.766   1903      0    0.0717175     0.132625      136.478      100.500
 124.3203      13765.7      126.644   1933      0    0.0650661     0.130947      125.773      106.160
 127.6803      13899.5      133.862   2019      0    0.0669407     0.156576      135.153      111.976
 131.0403      14011.6      112.105   2038      0    0.0546045     0.131061      111.284      117.947
 134.4003      14110.3      98.6550   2100     13    0.0468367     0.130759      98.3570      124.074
 137.7603      14210.4      100.137   2119     35    0.0463665     0.129080      98.2506      130.355
 141.1203      14308.0      97.6122   2178     55    0.0441081     0.122454      96.0674      136.791
 144.4803      14403.4      95.3755   2166     73    0.0420835     0.121956      91.1530      143.383
 147.8404      14496.7      93.3104   2252     76    0.0402258     0.120673      90.5884      150.129
 151.2004      14572.0      75.2579   2300     77    0.0317144     0.120529      72.9430      157.031
 154.5604      14638.2      66.2194   2367     58    0.0272921     0.120652      64.6004      164.087
 157.9204      14723.1      84.9168   2425     36    0.0342454     0.118760      83.0452      171.299
 161.2804      14808.4      85.3173   2559      2    0.0336827     0.124989      86.1941      178.666
 164.6404      14891.0      82.5371   2577      0    0.0319133     0.121199      82.2405      186.188
 168.0004      14968.5      77.5031   2634      0    0.0293615     0.125061      77.3381      193.865
 171.3604      15048.6      80.1078   2709      0    0.0297473     0.139443      80.5853      201.697
 174.7204      15123.3      74.7100   2728      0    0.0272041     0.125593      74.2127      209.684
 178.0804      15197.0      73.6947   2811      0    0.0263233     0.121668      73.9949      217.827
 181.4404      15258.1      61.0813   2838      0    0.0214101     0.117212      60.7618      226.124
 184.8004      15321.3      63.1882   2918      0    0.0217422     0.118123      63.4437      234.577
 188.1604      15386.5      65.2564   2955      0    0.0220492     0.120582      65.1555      243.184
 191.5205      15452.6      66.1023   3014      0    0.0219397     0.119421      66.1261      251.947
 194.8805      15526.4      73.7403   3063      0    0.0240493     0.118575      73.6629      260.865
 198.2405      15589.4      63.0377   3133      0    0.0202073     0.118878      63.3095      269.938
 201.6005      15657.2      67.8281   3145      0    0.0213775     0.121972      67.2323      279.166
 204.9605      15741.5      84.2397   3250      0    0.0261111     0.142378      84.8611      288.549
 208.3205      15804.0      62.5690   3278      0    0.0190786     0.121280      62.5396      298.087
 211.6805      15865.1      61.1040   3329      0    0.0183338     0.120391      61.0333      307.780
 215.0405      15912.5      47.3331   3402      1    0.0139783     0.120202      47.5543      317.628
 218.4005      15966.8      54.3519   3418      0    0.0158022     0.123646      54.0120      327.632
 221.7605      16019.3      52.4785   3502      1    0.0150246     0.118707      52.6160      337.790
 225.1205      16068.5      49.1708   3523     21    0.0138660     0.117344      48.8498      348.104
 228.4806      16122.9      54.3966   3573     35    0.0151123     0.120882      53.9964      358.573
 231.8406      16183.4      60.4863   3550     68    0.0165588     0.118495      58.7838      369.197
 235.2006      16237.2      53.8591   3672     68    0.0145324     0.124569      53.3631      379.975
 241.5150      16355.3      118.082   7036     77    0.0166097     0.139098      116.866      400.652
 244.8750      16470.5      115.201   3814     24    0.0298473     0.173222      113.838      411.877
 248.4030      16540.7      70.1572   4080     52    0.0170697     0.147472      69.6445      423.831
 252.1074      16591.1      50.4371   4282     79    0.0115183     0.121742      49.3215      436.566
 255.9970      16668.3      77.2035   4553    117    0.0165406     0.129686      75.3095      450.141
 260.0812      16723.2      54.8667   4825    151    0.0110222     0.121869      53.1822      464.619
 264.3695      16764.0      40.8466   5134    200   0.00769023     0.121751      39.4816      480.066
 268.8722      16840.4      76.4014   5440    206    0.0134733     0.128494      73.2948      496.559
 273.6001      16906.7      66.2838   5889    183    0.0109431     0.121645      64.4437      514.175
 278.5643      16960.8      54.1509   6356    107   0.00836483     0.120393      53.1669      533.003
 283.7768      16999.9      39.0864   6788    130   0.00564621     0.120218      38.3265      553.137
 289.2499      17072.3      72.3696   7315    114   0.00977061     0.133043      71.4720      574.679
 294.9967      17212.2      139.861   7792    124    0.0176381     0.142359      137.436      597.741
