# All data in this file is centered around the brightness peak.

# FILENAME = J2044-68_R_ss.fits / Image file name
# PIXSIZE =      0.432160 / Pixel size [arcsec]
# FLUX_UNITS = erg/cm^2/Angstrom/sec / Flux units
# FLUX_SCALE =    4.6179670e-19 / Flux scale [above units / (DN/sec)]
# FLUXCAL =    1 / Flux calibration complete?
# PROFTYPE = brightness / Profile type (isophote/brightness/other)
# NUMGALS =        1 / Number of sources in image
#
# GALINDEX =        1 / Source index (1 - N)
# XCENTER =       1298.60 / X(center) [pixels]
# YCENTER =       1345.06 / Y(center) [pixels]
# AXERAT =       2.03008 / Axial ratio (a/b)
# PA_IMAGE =       121.630 / Position angle, counterclockwise from Up [deg]
# PA =        121.54191 / Position angle, from N towards E [deg]
# SKYLEV =       10.4261 / Sky level [DN/sec]
# ERR_SKY_PIXEL =      0.213591 / Sky RMS (pixel-to-pixel) [DN/sec]
# ERR_SKY_BOX =    0.00381712 / Sky RMS (box-to-box) [DN/sec]
# FLUXRAD_S =       465.282 / Sky aperture radius [pixels]
# FLUXRAD_F =       465.282 / Flux aperture radius [pixels]
# FLUXRAD_C =      -999.000 / Radius where SNR=3 [pixels]
# FLUX_S =        213588.81 / Flux within sky aperture [DN/sec]
# FLUX_F =        213588.81 / Flux within flux aperture [DN/sec]
# ERR_FLUX_S_SKY =       1278.81 / Uncertainty in FLUX_S due to sky [DN/sec]
# ERR_FLUX_F_SKY =       1278.81 / Uncertainty in FLUX_F due to sky [DN/sec]
# RE_F =        109.09930 / Flux aperture half-light radius [pixels]
# ERR_RE_F_SKY =       0.52631239 / Uncertainty in RE_F due to sky [pixels]
# SE_F =        2.8559766 / Face-on surface brightness within RE_F [DN/sec/pixel]
#  a[pix]  F(interior)     dF       N(good) N(bad) SurfBright  Sigma(SB)    dF(raw)  Sigma(F,sky)
# all Flux and Surface Brightness values are in [DN/sec]
   0.0000      0.00000      0.00000      0      0      0.00000      0.00000      0.00000      0.00000
   4.2147      1392.26      1392.26     28      0      50.6458      7.97408      1418.08     0.104933
   8.4295      4384.72      2992.45     78      0      36.2851      8.20854      2830.23     0.419733
  12.6442      7888.95      3504.24    140      0      25.4944      5.22484      3569.22     0.944400
  16.8590      11502.9      3613.97    196      0      18.7806      3.24841      3680.99      1.67893
  21.0737      15183.6      3680.66    246      0      14.8767      2.23199      3659.66      2.62333
  25.2884      18970.2      3786.64    296      0      12.5223      1.57018      3706.59      3.77760
  29.5032      22877.0      3906.79    362      0      10.9320      1.22382      3957.38      5.14173
  33.7179      26910.2      4033.23    413      0      9.78101      1.23373      4039.56      6.71573
  37.9326      30984.9      4074.70    467      0      8.71905      1.18962      4071.80      8.49960
  42.1474      35079.5      4094.52    529      0      7.83919      1.01386      4146.93      10.4933
  46.3621      39230.2      4150.70    577      0      7.18992     0.919889      4148.58      12.6969
  50.5769      43446.8      4216.59    623      0      6.66892     0.850473      4154.74      15.1104
  54.7916      47800.4      4353.64    690      0      6.33482     0.757882      4371.03      17.7337
  59.0063      52295.8      4495.46    738      0      6.05665     0.629168      4469.81      20.5669
  63.2211      56898.9      4603.04    798      0      5.77389     0.817974      4607.57      23.6100
  67.4358      61499.9      4600.97    862      0      5.39895     0.615892      4653.89      26.8629
  71.6505      66143.3      4643.44    891     17      5.11856     0.479254      4560.64      30.3257
  75.8653      70871.7      4728.38    901     47      4.91435     0.542192      4427.83      33.9984
  80.0800      75631.2      4759.50    957     61      4.67931     0.681535      4478.10      37.8809
  84.2948      80340.9      4709.69   1015     66      4.39288     0.643779      4458.77      41.9733
  88.5095      85013.3      4672.39   1081     56      4.14550     0.582916      4481.28      46.2756
  92.7242      89598.6      4585.31   1156     16      3.87903     0.550553      4484.16      50.7877
  96.9390      94063.5      4464.98   1241      0      3.60934     0.472671      4479.20      55.5097
 101.1537      98433.1      4369.51   1290      0      3.38187     0.435190      4362.61      60.4416
 105.3684      102786.      4353.34   1339      0      3.23183     0.437339      4327.42      65.5833
 109.5832      107212.      4425.30   1400      0      3.15642     0.535306      4418.98      70.9349
 113.7979      111725.      4513.09   1472      4      3.09757     0.587329      4559.62      76.4964
 118.0127      116186.      4460.94   1489     18      2.95043     0.561449      4393.20      82.2677
 122.2274      120578.      4392.02   1535     28      2.80292     0.624775      4302.48      88.2489
 126.4421      124764.      4186.36   1574     35      2.58111     0.593832      4062.67      94.4400
 130.6569      128722.      3957.65   1641     40      2.36009     0.525878      3872.91      100.841
 134.8716      132509.      3787.13   1690     39      2.18672     0.489395      3695.55      107.452
 139.0864      136133.      3624.34   1777     33      2.02832     0.453153      3604.32      114.272
 143.3011      139632.      3498.76   1811     23      1.89960     0.436595      3440.18      121.303
 147.5158      143027.      3395.43   1883      1      1.79006     0.446385      3370.69      128.543
 151.7306      146413.      3386.07   1953      0      1.73484     0.581981      3388.14      135.994
 155.9453      149651.      3237.57   2013      0      1.61331     0.475075      3247.60      143.654
 160.1600      152744.      3093.13   2057      0      1.50023     0.420291      3085.98      151.524
 164.3748      155733.      2989.00   2131      1      1.41208     0.397455      3009.14      159.604
 168.5895      158628.      2894.35   2172      0      1.33274     0.395051      2894.71      167.893
 172.8043      161441.      2813.85   2211      0      1.26369     0.401721      2794.01      176.393
 177.0190      164145.      2703.23   2266      0      1.18475     0.399170      2684.64      185.102
 181.2337      166718.      2573.32   2340      0      1.10128     0.354070      2577.00      194.022
 185.4485      169202.      2484.18   2410      1      1.03869     0.386082      2503.24      203.151
 189.6632      171605.      2402.58   2451      1     0.981996     0.447094      2406.87      212.490
 193.8779      173799.      2194.03   2469     25     0.877048     0.325505      2165.43      222.039
 198.0927      175854.      2055.77   2519     33     0.804103     0.299912      2025.53      231.798
 202.3074      177754.      1899.96   2559     44     0.727518     0.265134      1861.72      241.766
 206.5222      179549.      1794.74   2622     47     0.673055     0.266621      1764.75      251.945
 210.7369      181224.      1674.43   2681     59     0.615255     0.247504      1649.50      262.333
 214.9516      182867.      1642.95   2694     84     0.591731     0.255562      1594.12      272.932
 219.1664      184494.      1627.23   2737     90     0.574691     0.413619      1572.93      283.740
 223.3811      186110.      1615.69   2787     92     0.559748     0.495445      1560.02      294.758
 227.5959      187583.      1473.65   2838     94     0.500994     0.274545      1421.82      305.986
 231.8106      188908.      1324.88   2914     68     0.442153     0.227939      1288.43      317.423
 236.0253      190166.      1257.63   3038     47     0.412147     0.232496      1252.10      329.071
 240.2401      191345.      1179.39   3052     67     0.379664     0.238209      1158.73      340.928
 244.4548      192446.      1100.60   3080     59     0.348138     0.237328      1072.27      352.996
 248.6696      193530.      1084.75   3163     44     0.337260     0.245669      1066.75      365.273
 252.8843      194525.      994.692   3221     51     0.304064     0.240599      979.392      377.760
 257.0990      195517.      991.788   3285     53     0.298163     0.312316      979.467      390.457
 261.3138      196379.      862.465   3354     33     0.255069     0.250336      855.503      403.364
 265.5285      197179.      799.777   3414     33     0.232746     0.227657      794.595      416.480
 269.7432      197931.      751.601   3464     29     0.215280     0.218861      745.731      429.807
 273.9580      198650.      719.177   3499     18     0.202800     0.222108      709.597      443.343
 278.1727      199328.      678.086   3537     57     0.188293     0.214869      665.991      457.090
 282.3874      199973.      644.871   3592     70     0.176379     0.229309      633.552      471.046
 286.6022      200628.      655.164   3659     74     0.176538     0.233442      645.952      485.212
 290.8169      201220.      592.218   3726     46     0.157247     0.221073      585.901      499.588
 295.0316      201781.      560.971   3811      1     0.146808     0.217574      559.486      514.173
 299.2464      202320.      538.526   3854      1     0.138934     0.220264      535.452      528.969
 303.4612      202858.      538.251   3928      0     0.136921     0.224275      537.826      543.975
 307.6759      203385.      526.698   3972     33     0.132134     0.228667      524.837      559.190
 311.8906      203951.      566.378   3957     96     0.140157     0.380228      554.599      574.615
 316.1053      204511.      559.447   3923    167     0.136582     0.320180      535.812      590.250
 320.3201      204984.      473.199   3948    206     0.113996     0.243312      450.055      606.095
 324.5349      205417.      432.866   4011    168     0.102916     0.224727      412.795      622.150
 328.7495      205824.      407.487   4114    128    0.0956327     0.215459      393.433      638.414
 332.9643      206247.      422.813   4312     30    0.0979649     0.218624      422.425      654.889
 337.1790      206658.      410.831   4396      0    0.0939910     0.222924      413.184      671.573
 341.3938      207021.      363.703   4425      1    0.0821761     0.211080      363.629      688.468
 345.6085      207412.      391.024   4460      1    0.0872644     0.232603      389.199      705.572
 349.8232      207811.      398.552   4523      4    0.0878665     0.317813      397.420      722.886
 354.0380      208146.      335.197   4547     34    0.0730136     0.248014      331.993      740.410
 358.2527      208434.      287.892   4586     82    0.0619681     0.210043      284.186      758.143
 362.4675      208728.      294.144   4598    122    0.0625728     0.211095      287.710      776.087
 366.6822      209011.      282.985   4617    133    0.0595029     0.213940      274.725      794.241
 370.8969      209302.      290.977   4698     98    0.0604846     0.208711      284.157      812.604
 375.1117      209612.      309.800   4746    115    0.0636690     0.231969      302.173      831.177
 379.3264      210012.      399.966   4770    136    0.0812816     0.390831      387.713      849.960
 383.5412      210310.      298.217   4808    186    0.0599342     0.277304      288.164      868.953
 387.7559      210545.      235.159   4855    198    0.0467448     0.204494      226.946      888.156
 391.9706      210752.      206.616   4909    177    0.0406267     0.199402      199.437      907.569
 396.1854      210978.      225.755   4939    166    0.0439154     0.208664      216.898      927.191
 400.4001      211188.      210.162   5018    162    0.0404496     0.202875      202.976      947.023
 404.6148      211402.      213.857   5107    161    0.0407300     0.203370      208.008      967.066
 408.8296      211571.      169.146   5170    168    0.0318805     0.204517      164.822      987.318
 413.0443      211727.      156.519   5217    139    0.0291981     0.206560      152.326      1007.78
 417.2591      211850.      122.244   5296    122    0.0225728     0.203241      119.545      1028.45
 421.4738      212000.      150.759   5365    100    0.0275582     0.202005      147.850      1049.33
 425.6885      212158.      157.203   5427     77    0.0284503     0.212208      154.400      1070.43
 429.9033      212322.      164.843   5515     67    0.0295389     0.210883      162.907      1091.73
 434.1180      212489.      166.279   5602     48    0.0295057     0.208777      165.291      1113.24
 438.3328      212640.      151.785   5656     49    0.0266734     0.206160      150.865      1134.96
 442.5475      212783.      142.444   5664     76    0.0247925     0.202637      140.425      1156.89
 446.7622      212948.      165.118   5667    105    0.0284667     0.210310      161.321      1179.03
 450.9770      213109.      161.299   5658    189    0.0275469     0.208373      155.860      1201.38
 455.1917      213255.      145.633   5636    281    0.0246402     0.210049      138.872      1223.94
 459.4065      213407.      152.296   5656    353    0.0255299     0.215648      144.397      1246.71
 465.2820      213589.      181.535   7902    489    0.0215913     0.211807      170.614      1278.81
 469.4968      213701.      111.874   5794    290    0.0183491     0.203816      106.314      1302.08
 473.9222      213816.      114.933   6286    190    0.0177886     0.203134      111.819      1326.74
 478.5690      213960.      144.394   6697    155    0.0210814     0.218238      141.182      1352.89
 483.4481      214094.      133.932   7129    139    0.0184386     0.221009      131.449      1380.61
 488.5711      214200.      105.818   7547    157    0.0137315     0.210807      103.632      1410.03
 493.9503      214362.      162.303   7996    162    0.0198441     0.219143      158.674      1441.25
 499.5984      214504.      141.668   8466    235    0.0163132     0.207877      138.108      1474.40
 505.5290      214662.      157.991   8870    333    0.0171270     0.207193      151.916      1509.61
 511.7561      214850.      188.160   9339    462    0.0191939     0.216223      179.251      1547.03
 518.2946      215096.      246.605   9903    525    0.0236609     0.227781      234.314      1586.81
 525.1599      215381.      284.841  10749    332    0.0256939     0.217922      276.184      1629.13
 532.3685      215819.      437.760  11555    258    0.0371069     0.316520      428.771      1674.16
 539.9376      216109.      290.104  12414    136    0.0230970     0.217630      286.726      1722.10
 547.8851      216266.      157.157  13200    157    0.0117464     0.210949      155.052      1773.17
 556.2300      216442.      175.479  14116    173    0.0123071     0.200789      173.727      1827.60
 564.9921      216701.      259.060  14977    247    0.0170396     0.222094      255.202      1885.63
