# All data in this file is centered around the brightness peak.

# FILENAME = J2044-68_Rsub_ss.fits / Image file name
# PIXSIZE =      0.432160 / Pixel size [arcsec]
# FLUX_UNITS = erg/cm^2/sec / Flux units
# FLUX_SCALE =    6.5817358e-16 / Flux scale [above units / (DN/sec)]
# FLUXCAL =    1 / Flux calibration complete?
# PROFTYPE = brightness / Profile type (isophote/brightness/other)
# NUMGALS =        1 / Number of sources in image
#
# GALINDEX =        1 / Source index (1 - N)
# XCENTER =       1298.60 / X(center) [pixels]
# YCENTER =       1345.06 / Y(center) [pixels]
# AXERAT =       2.03008 / Axial ratio (a/b)
# PA_IMAGE =       121.630 / Position angle, counterclockwise from Up [deg]
# PA =        121.54191 / Position angle, from N towards E [deg]
# SKYLEV =  -0.000580393 / Sky level [DN/sec]
# ERR_SKY_PIXEL =     0.0110370 / Sky RMS (pixel-to-pixel) [DN/sec]
# ERR_SKY_BOX =   0.000266937 / Sky RMS (box-to-box) [DN/sec]
# FLUXRAD_S =       465.282 / Sky aperture radius [pixels]
# FLUXRAD_F =       465.282 / Flux aperture radius [pixels]
# FLUXRAD_C =      -999.000 / Radius where SNR=3 [pixels]
# FLUX_S =        1975.0910 / Flux within sky aperture [DN/sec]
# FLUX_F =        1975.0910 / Flux within flux aperture [DN/sec]
# ERR_FLUX_S_SKY =       89.4290 / Uncertainty in FLUX_S due to sky [DN/sec]
# ERR_FLUX_F_SKY =       89.4290 / Uncertainty in FLUX_F due to sky [DN/sec]
# ERR_FLUX_S_CONT =        281.87846 / Uncertainty in FLUX_S due to continuum [DN/sec]
# ERR_FLUX_F_CONT =        281.87846 / Uncertainty in FLUX_F due to continuum [DN/sec]
# RE_F =        147.33487 / Flux aperture half-light radius [pixels]
# ERR_RE_F_SKY =        2.1718711 / Uncertainty in RE_F due to sky [pixels]
# ERR_RE_F_CONT =        2.9128700 / Uncertainty in RE_F due to continuum [pixels]
# SE_F =      0.014480920 / Face-on surface brightness within RE_F [DN/sec/pixel]
#  a[pix]  F(interior)     dF       N(good) N(bad) SurfBright  Sigma(SB)    dF(raw)  Sigma(F,sky)  Sigma(F,cntrat)
# all Flux and Surface Brightness values are in [DN/sec]
   0.0000      0.00000      0.00000      0      0      0.00000      0.00000      0.00000      0.00000      0.00000
   4.2147      6.97843      6.97843     28      0     0.253851     0.127975      7.10784   0.00733815      1.83741
   8.4295      14.7123      7.73384     78      0    0.0937769    0.0893112      7.31460    0.0293526      5.78662
  12.6442      17.9232      3.21092    140      0    0.0233605    0.0324145      3.27047    0.0660434      10.4112
  16.8590      20.4515      2.52833    196      0    0.0131389    0.0201916      2.57522     0.117410      15.1807
  21.0737      21.5391      1.08757    246      0   0.00439579    0.0165775      1.08136     0.183454      20.0382
  25.2884      23.1999      1.66077    296      0   0.00549212    0.0161597      1.62567     0.264174      25.0355
  29.5032      25.4670      2.26711    362      0   0.00634382    0.0154826      2.29646     0.359570      30.1914
  33.7179      29.5377      4.07077    413      0   0.00987204    0.0158178      4.07715     0.469642      35.5141
  37.9326      34.6526      5.11482    467      0    0.0109447    0.0182131      5.11117     0.594391      40.8916
  42.1474      42.7391      8.08651    529      0    0.0154821    0.0193500      8.19002     0.733815      46.2952
  46.3621      53.5498      10.8107    577      0    0.0187265    0.0213598      10.8052     0.887917      51.7730
  50.5769      71.2136      17.6639    623      0    0.0279370    0.0239519      17.4048      1.05669      57.3378
  54.7916      93.8174      22.6037    690      0    0.0328898    0.0249644      22.6940      1.24015      63.0834
  59.0063      120.938      27.1207    738      0    0.0365393    0.0323318      26.9660      1.43828      69.0161
  63.2211      147.597      26.6593    798      0    0.0334405    0.0337764      26.6855      1.65108      75.0909
  67.4358      175.912      28.3147    862      0    0.0332255    0.0295039      28.6404      1.87857      81.1629
  71.6505      206.325      30.4126    891     17    0.0335244    0.0298243      29.8703      2.12073      87.2910
  75.8653      237.206      30.8811    901     47    0.0320956    0.0280174      28.9182      2.37756      93.5311
  80.0800      272.453      35.2468    957     61    0.0346529    0.0354162      33.1629      2.64907      99.8123
  84.2948      312.813      40.3609   1015     66    0.0376460    0.0305569      38.2107      2.93526      106.028
  88.5095      359.274      46.4601   1081     56    0.0412210    0.0360494      44.5599      3.23613      112.194
  92.7242      404.530      45.2563   1156     16    0.0382855    0.0410205      44.2580      3.55167      118.245
  96.9390      442.168      37.6380   1241      0    0.0304253    0.0327892      37.7578      3.88188      124.138
 101.1537      475.869      33.7011   1290      0    0.0260836    0.0271089      33.6479      4.22678      129.905
 105.3684      517.920      42.0510   1339      0    0.0312178    0.0331405      41.8007      4.58635      135.650
 109.5832      569.801      51.8806   1400      0    0.0370047    0.0413547      51.8065      4.96059      141.490
 113.7979      630.037      60.2363   1472      4    0.0413433    0.0526629      60.8573      5.34951      147.446
 118.0127      684.006      53.9695   1489     18    0.0356951    0.0435700      53.1499      5.75311      153.333
 122.2274      728.644      44.6373   1535     28    0.0284868    0.0315907      43.7273      6.17139      159.129
 126.4421      766.690      38.0463   1572     37    0.0234576    0.0261060      36.8753      6.60434      164.654
 130.6569      802.168      35.4779   1633     48    0.0211568    0.0221987      34.5490      7.05197      169.877
 134.8716      839.643      37.4753   1679     50    0.0216385    0.0238770      36.3310      7.51427      174.875
 139.0864      883.684      44.0410   1760     50    0.0246470    0.0302140      43.3788      7.99125      179.658
 143.3011      931.915      48.2308   1802     32    0.0261862    0.0382799      47.1876      8.48291      184.276
 147.5158      988.873      56.9576   1883      1    0.0300279    0.0567730      56.5425      8.98924      188.757
 151.7306      1074.26      85.3896   1953      0    0.0437490     0.138497      85.4418      9.51025      193.225
 155.9453      1129.00      54.7334   2013      0    0.0272742    0.0624944      54.9029      10.0459      197.498
 160.1600      1165.94      36.9416   2057      0    0.0179174    0.0397213      36.8562      10.5963      201.580
 164.3748      1194.24      28.3063   2131      1    0.0133726    0.0231021      28.4970      11.1613      205.525
 168.5895      1227.85      33.6060   2172      0    0.0154743    0.0289550      33.6101      11.7410      209.345
 172.8043      1273.12      45.2715   2211      0    0.0203312    0.0381290      44.9522      12.3354      213.058
 177.0190      1318.02      44.8942   2265      1    0.0196759    0.0380601      44.5658      12.9445      216.626
 181.2337      1362.79      44.7754   2312     28    0.0191621    0.0353261      44.3028      13.5682      220.022
 185.4485      1423.15      60.3568   2364     47    0.0252365    0.0871534      59.6591      14.2067      223.300
 189.6632      1487.33      64.1831   2392     60    0.0262332     0.109952      62.7499      14.8598      226.471
 193.8779      1526.42      39.0904   2426     68    0.0156261    0.0372206      37.9089      15.5275      229.367
 198.0927      1555.60      29.1833   2482     70    0.0114149    0.0322774      28.3318      16.2100      232.080
 202.3074      1577.97      22.3614   2531     72   0.00856247    0.0192287      21.6716      16.9071      234.587
 206.5222      1596.50      18.5299   2598     71   0.00694900    0.0157056      18.0535      17.6189      236.956
 210.7369      1611.17      14.6729   2662     78   0.00539144    0.0128688      14.3520      18.3454      239.165
 214.9516      1628.76      17.5871   2670    108   0.00633423    0.0147246      16.9124      19.0865      241.334
 219.1664      1646.54      17.7828   2669    158   0.00628036    0.0139890      16.7623      19.8424      243.481
 223.3811      1665.80      19.2661   2694    185   0.00667465    0.0171189      17.9815      20.6129      245.613
 227.5959      1683.94      18.1392   2735    197   0.00616673    0.0167943      16.8660      21.3981      247.558
 231.8106      1701.24      17.2968   2767    215   0.00577246    0.0133298      15.9724      22.1979      249.307
 236.0253      1716.86      15.6210   2889    196   0.00511927    0.0138981      14.7896      23.0124      250.966
 240.2401      1731.02      14.1610   2949    170   0.00455865    0.0132431      13.4435      23.8417      252.523
 244.4548      1743.16      12.1381   3031    108   0.00383951    0.0132800      11.6375      24.6856      253.975
 248.6696      1759.03      15.8709   3102    105   0.00493443    0.0163620      15.3066      25.5441      255.407
 252.8843      1774.46      15.4298   3202     70   0.00471667    0.0157552      15.1028      26.4174      256.720
 257.0990      1788.03      13.5646   3277     61   0.00407795    0.0154376      13.3635      27.3053      258.028
 261.3138      1799.91      11.8825   3333     54   0.00351418    0.0147235      11.7128      28.2079      259.167
 265.5285      1805.49      5.57978   3391     56   0.00162379    0.0112081      5.50629      29.1251      260.222
 269.7432      1812.70      7.21387   3420     73   0.00206626    0.0118422      7.06662      30.0571      261.214
 273.9580      1821.58      8.87402   3395    122   0.00250237    0.0148587      8.49556      31.0037      262.163
 278.1727      1828.19      6.61036   3461    133   0.00183558    0.0114078      6.35295      31.9650      263.058
 282.3874      1834.24      6.05144   3544    118   0.00165513    0.0109598      5.86577      32.9410      263.909
 286.6022      1839.52      5.28488   3615    118   0.00142404    0.0117483      5.14791      33.9316      264.774
 290.8169      1848.14      8.61622   3668    104   0.00228779    0.0140070      8.39162      34.9370      265.555
 295.0316      1855.54      7.40063   3754     58   0.00193677    0.0122284      7.27063      35.9570      266.296
 299.2464      1859.30      3.75950   3854      1  0.000969913    0.0106170      3.73804      36.9916      267.006
 303.4612      1863.35      4.04649   3908     20   0.00102935    0.0110920      4.02270      38.0410      267.717
 307.6759      1868.55      5.20882   3921     84   0.00130675    0.0108731      5.12377      39.1050      268.412
 311.8906      1872.79      4.23130   3946    107   0.00104708    0.0107275      4.13179      40.1837      269.159
 316.1053      1877.20      4.40998   3968    122   0.00107664    0.0114662      4.27212      41.2771      269.898
 320.3201      1882.51      5.31008   4025    129   0.00127922    0.0114776      5.14886      42.3852      270.522
 324.5349      1887.36      4.85764   4053    126   0.00115493    0.0109879      4.68091      43.5079      271.093
 328.7495      1892.91      5.54965   4128    114   0.00130244    0.0106403      5.37648      44.6453      271.631
 332.9643      1896.67      3.75531   4254     88  0.000870097    0.0105720      3.70139      45.7974      272.189
 337.1790      1900.20      3.53595   4382     14  0.000808963    0.0104988      3.54487      46.9642      272.731
 341.3938      1905.00      4.79899   4425      1   0.00108430    0.0104130      4.79801      48.1456      273.211
 345.6085      1908.57      3.56880   4460      1  0.000796446    0.0105864      3.55215      49.3418      273.727
 349.8232      1912.46      3.89294   4523      4  0.000858254    0.0104432      3.88188      50.5525      274.253
 354.0380      1915.21      2.74361   4563     18  0.000597622    0.0104678      2.72695      51.7780      274.696
 358.2527      1918.92      3.70951   4608     60  0.000798462    0.0103577      3.67931      53.0182      275.076
 362.4675      1921.78      2.86480   4640     80  0.000609425    0.0104942      2.82773      54.2730      275.464
 366.6822      1924.93      3.14592   4650    100  0.000661488    0.0104231      3.07592      55.5425      275.837
 370.8969      1927.28      2.34946   4670    126  0.000488377    0.0103488      2.28072      56.8267      276.221
 375.1117      1930.41      3.13492   4691    170  0.000644278    0.0104817      3.02231      58.1255      276.630
 379.3264      1933.11      2.70119   4711    195  0.000548940    0.0103744      2.58606      59.4390      277.158
 383.5412      1936.18      3.06880   4775    219  0.000616752    0.0102277      2.94499      60.7673      277.552
 387.7559      1939.72      3.53322   4832    221  0.000702333    0.0106104      3.39367      62.1101      277.862
 391.9706      1942.05      2.33152   4873    213  0.000458446    0.0104431      2.23401      63.4677      278.135
 396.1854      1944.85      2.79915   4901    204  0.000544510    0.0104761      2.66864      64.8399      278.432
 400.4001      1946.89      2.04003   4990    190  0.000392641    0.0104233      1.95928      66.2268      278.710
 404.6148      1948.57      1.68736   5077    191  0.000321365    0.0105554      1.63157      67.6284      278.992
 408.8296      1948.50   -0.0715681   5139    199 -1.34891e-05    0.0103314   -0.0693205      69.0447      279.215
 413.0443      1949.60      1.09833   5164    192  0.000204889    0.0103683      1.05805      70.4756      279.422
 417.2591      1950.80      1.20069   5231    187  0.000221711    0.0103190      1.15977      71.9212      279.583
 421.4738      1953.66      2.85609   5285    180  0.000522083    0.0103855      2.75921      73.3815      279.782
 425.6885      1953.85     0.195299   5342    162  3.53448e-05    0.0104203     0.188812      74.8565      279.990
 429.9033      1956.12      2.27108   5404    178  0.000406965    0.0103666      2.19924      76.3462      280.207
 434.1180      1959.02      2.89245   5469    181  0.000513259    0.0105673      2.80702      77.8505      280.427
 438.3328      1960.06      1.04101   5514    191  0.000182938    0.0103000      1.00872      79.3695      280.627
 442.5475      1961.53      1.47696   5557    183  0.000257066    0.0104114      1.42852      80.9031      280.815
 446.7622      1964.11      2.57346   5512    260  0.000443670    0.0103792      2.44551      82.4515      281.033
 450.9770      1967.74      3.63586   5467    380  0.000620937    0.0104859      3.39466      84.0145      281.246
 455.1917      1969.73      1.98645   5464    453  0.000336094    0.0104725      1.83642      85.5922      281.438
 459.4065      1972.85      3.12417   5526    483  0.000523716    0.0104202      2.89405      87.1846      281.639
 465.2820      1975.09      2.23645   7677    714  0.000265998    0.0103733      2.04206      89.4290      281.878
 469.4968      1976.80      1.71380   5595    489  0.000281090    0.0103222      1.57270      91.0565      282.026
 473.9222      1979.08      2.27100   6047    429  0.000351492    0.0103981      2.12547      92.7812      282.178
 478.5690      1980.44      1.36142   6573    279  0.000198766    0.0103488      1.30649      94.6095      282.368
 483.4481      1982.15      1.71267   7024    244  0.000235786    0.0104011      1.65616      96.5485      282.545
 488.5711      1985.94      3.78716   7402    302  0.000491441    0.0103845      3.63765      98.6055      282.685
 493.9503      1988.42      2.48713   7820    338  0.000304092    0.0104448      2.37800      100.789      282.899
 499.5984      1991.44      3.02032   8381    320  0.000347792    0.0104488      2.91484      103.107      283.086
 505.5290      1995.53      4.08161   8862    341  0.000442466    0.0104763      3.92113      105.569      283.294
 511.7561      1998.66      3.13479   9340    461  0.000319774    0.0104010      2.98669      108.186      283.543
 518.2946      2004.22      5.56123   9847    581  0.000533581    0.0104751      5.25418      110.968      283.868
 525.1599      2007.55      3.33072  10509    572  0.000300446    0.0103649      3.15739      113.928      284.244
 532.3685      2011.03      3.47869  11326    487  0.000294873    0.0104388      3.33973      117.077      284.822
 539.9376      2014.40      3.36658  12138    412  0.000268035    0.0103038      3.25341      120.429      285.205
 547.8851      2019.71      5.31547  13095    262  0.000397295    0.0103854      5.20258      124.001      285.412
 556.2300      2024.67      4.96128  14035    254  0.000347956    0.0104422      4.88356      127.807      285.644
 564.9921      2029.53      4.85099  14871    353  0.000319073    0.0104979      4.74493      131.865      285.986
